{
    "resourceType": "Bundle",
    "type": "transaction",
    "entry": [{
            "fullUrl": "urn:uuid:6e6304b9-f6cf-4bac-97ef-6ab5b4d45610",
            "resource": {
                "resourceType": "Patient",
                "meta": {
                    "profile": [
                        "https://www.netzwerk-universitaetsmedizin.de/fhir/StructureDefinition/Patient"
                    ]
                },
                "extension": [{
                        "url": "https://www.netzwerk-universitaetsmedizin.de/fhir/StructureDefinition/ethnic-group",
                        "valueCoding": {
                            "system": "http://snomed.info/sct",
                            "code": "26242008",
                            "display": "Mixed (qualifier value)"
                        }
                    }, {
                        "extension": [{
                                "url": "dateTimeOfDocumentation",
                                "valueDateTime": "2020-10-01"
                            }, {
                                "url": "age",
                                "valueAge": {
                                    "value": 67,
                                    "unit": "years",
                                    "system": "http://unitsofmeasure.org",
                                    "code": "a"
                                }
                            }
                        ],
                        "url": "https://www.netzwerk-universitaetsmedizin.de/fhir/StructureDefinition/age"
                    }
                ],
                "identifier": [
                    {
                        "system": "http://www.netzwerk-universitaetsmedizin.de/sid/dic-pseudonym",
                        "value": "source/original",
                        "type": {
                            "coding": [
                                {
                                    "system": "http://terminology.hl7.org/CodeSystem/v2-0203",
                                    "code": "ANON"
                                }
                            ]
                        }
                    }
                ],
                "birthDate": "1953-09-30"
            },
            "request": {
                "method": "PUT",
                "url": "Patient?identifier=http://www.netzwerk-universitaetsmedizin.de/sid/dic-pseudonym|source/original"
            }
        }, {
            "fullUrl": "urn:uuid:342946b6-77bc-4e3c-901a-f92fe6a9dc45",
            "resource": {
                "resourceType": "Observation",
                "meta": {
                    "profile": [
                        "https://www.netzwerk-universitaetsmedizin.de/fhir/StructureDefinition/pH"
                    ]
                },
                "status": "final",
                "category": [{
                        "coding": [{
                                "system": "http://loinc.org",
                                "code": "26436-6"
                            }, {
                                "system": "http://terminology.hl7.org/CodeSystem/observation-category",
                                "code": "laboratory"
                            }, {
                                "system": "http://loinc.org",
                                "code": "18767-4"
                            }
                        ]
                    }
                ],
                "code": {
                    "coding": [{
                            "system": "http://loinc.org",
                            "code": "2744-1",
                            "display": "pH of Arterial blood"
                        }
                    ],
                    "text": "pH of Arterial blood"
                },
                "subject": {
                    "reference": "urn:uuid:6e6304b9-f6cf-4bac-97ef-6ab5b4d45610"
                },
                "effectiveDateTime": "2020-09-21",
                "valueQuantity": {
                    "value": 7.4,
                    "unit": "pH",
                    "system": "http://unitsofmeasure.org",
                    "code": "[pH]"
                }
            },
            "request": {
                "method": "PUT",
                "url": "Observation?_profile=https://www.netzwerk-universitaetsmedizin.de/fhir/StructureDefinition/pH&date=2020-09-21"
            }
        }, {
            "fullUrl": "urn:uuid:06659981-4625-4a8f-a190-0f2f7a3ac35c",
            "resource": {
                "resourceType": "Observation",
                "meta": {
                    "profile": [
                        "https://www.netzwerk-universitaetsmedizin.de/fhir/StructureDefinition/carbon-dioxide-partial-pressure"
                    ]
                },
                "status": "final",
                "category": [{
                        "coding": [{
                                "system": "http://loinc.org",
                                "code": "26436-6"
                            }, {
                                "system": "http://terminology.hl7.org/CodeSystem/observation-category",
                                "code": "laboratory"
                            }, {
                                "system": "http://loinc.org",
                                "code": "18767-4"
                            }
                        ]
                    }
                ],
                "code": {
                    "coding": [{
                            "system": "http://loinc.org",
                            "code": "2019-8",
                            "display": "Carbon dioxide [Partial pressure] in Arterial blood"
                        }
                    ],
                    "text": "Carbon dioxide [Partial pressure] in Arterial blood"
                },
                "subject": {
                    "reference": "urn:uuid:6e6304b9-f6cf-4bac-97ef-6ab5b4d45610"
                },
                "effectiveDateTime": "2020-09-21",
                "valueQuantity": {
                    "value": 44,
                    "unit": "mmHg",
                    "system": "http://unitsofmeasure.org",
                    "code": "mm[Hg]"
                }
            },
            "request": {
                "method": "PUT",
                "url": "Observation?_profile=https://www.netzwerk-universitaetsmedizin.de/fhir/StructureDefinition/carbon-dioxide-partial-pressure&date=2020-09-21"
            }
        }, {
            "fullUrl": "urn:uuid:1ba15fa6-7c32-403b-92bf-2aa505a70849",
            "resource": {
                "resourceType": "Observation",
                "meta": {
                    "profile": [
                        "https://www.netzwerk-universitaetsmedizin.de/fhir/StructureDefinition/oxygen-partial-pressure"
                    ]
                },
                "status": "final",
                "category": [{
                        "coding": [{
                                "system": "http://loinc.org",
                                "code": "26436-6"
                            }, {
                                "system": "http://terminology.hl7.org/CodeSystem/observation-category",
                                "code": "laboratory"
                            }, {
                                "system": "http://loinc.org",
                                "code": "18767-4"
                            }
                        ]
                    }
                ],
                "code": {
                    "coding": [{
                            "system": "http://loinc.org",
                            "code": "2703-7",
                            "display": "Oxygen [Partial pressure] in Arterial blood"
                        }
                    ],
                    "text": "Oxygen [Partial pressure] in Arterial blood"
                },
                "subject": {
                    "reference": "urn:uuid:6e6304b9-f6cf-4bac-97ef-6ab5b4d45610"
                },
                "effectiveDateTime": "2020-09-21",
                "valueQuantity": {
                    "value": 67,
                    "unit": "mmHg",
                    "system": "http://unitsofmeasure.org",
                    "code": "mm[Hg]"
                }
            },
            "request": {
                "method": "PUT",
                "url": "Observation?_profile=https://www.netzwerk-universitaetsmedizin.de/fhir/StructureDefinition/oxygen-partial-pressure&date=2020-09-21"
            }
        }, {
            "fullUrl": "urn:uuid:a83114c8-cb20-4645-95be-94a3fd308df8",
            "resource": {
                "resourceType": "Observation",
                "meta": {
                    "profile": [
                        "https://www.netzwerk-universitaetsmedizin.de/fhir/StructureDefinition/oxygen-saturation"
                    ]
                },
                "status": "final",
                "category": [{
                        "coding": [{
                                "system": "http://terminology.hl7.org/CodeSystem/observation-category",
                                "code": "vital-signs"
                            }
                        ]
                    }
                ],
                "code": {
                    "coding": [{
                            "system": "http://loinc.org",
                            "code": "2708-6",
                            "display": "Oxygen saturation in Arterial blood"
                        }
                    ],
                    "text": "Oxygen saturation in Arterial blood"
                },
                "subject": {
                    "reference": "urn:uuid:6e6304b9-f6cf-4bac-97ef-6ab5b4d45610"
                },
                "effectiveDateTime": "2020-09-21",
                "valueQuantity": {
                    "value": 98,
                    "unit": "%",
                    "system": "http://unitsofmeasure.org",
                    "code": "%"
                }
            },
            "request": {
                "method": "PUT",
                "url": "Observation?_profile=https://www.netzwerk-universitaetsmedizin.de/fhir/StructureDefinition/oxygen-saturation&date=2020-09-21"
            }
        }, {
            "fullUrl": "urn:uuid:6c6817e2-69d3-48e7-834b-5adbf3b5adae",
            "resource": {
                "resourceType": "Observation",
                "meta": {
                    "profile": [
                        "https://www.netzwerk-universitaetsmedizin.de/fhir/StructureDefinition/inhaled-oxygen-concentration"
                    ]
                },
                "status": "final",
                "category": [{
                        "coding": [{
                                "system": "http://loinc.org",
                                "code": "26436-6"
                            }, {
                                "system": "http://terminology.hl7.org/CodeSystem/observation-category",
                                "code": "laboratory"
                            }, {
                                "system": "http://loinc.org",
                                "code": "18767-4"
                            }
                        ]
                    }
                ],
                "code": {
                    "coding": [{
                            "system": "http://loinc.org",
                            "code": "3150-0",
                            "display": "Inhaled oxygen concentration"
                        }
                    ],
                    "text": "Inhaled oxygen concentration"
                },
                "subject": {
                    "reference": "urn:uuid:6e6304b9-f6cf-4bac-97ef-6ab5b4d45610"
                },
                "effectiveDateTime": "2020-09-21",
                "valueQuantity": {
                    "value": 21,
                    "unit": "%",
                    "system": "http://unitsofmeasure.org",
                    "code": "%"
                }
            },
            "request": {
                "method": "PUT",
                "url": "Observation?_profile=https://www.netzwerk-universitaetsmedizin.de/fhir/StructureDefinition/inhaled-oxygen-concentration&date=2020-09-21"
            }
        }, {
            "fullUrl": "urn:uuid:e90f9fcd-e6c3-4304-8082-546bf0aba855",
            "resource": {
                "resourceType": "Observation",
                "meta": {
                    "profile": [
                        "https://www.netzwerk-universitaetsmedizin.de/fhir/StructureDefinition/blood-gas-panel"
                    ]
                },
                "status": "final",
                "category": [{
                        "coding": [{
                                "system": "http://loinc.org",
                                "code": "26436-6"
                            }, {
                                "system": "http://terminology.hl7.org/CodeSystem/observation-category",
                                "code": "laboratory"
                            }, {
                                "system": "http://loinc.org",
                                "code": "18767-4"
                            }
                        ]
                    }
                ],
                "code": {
                    "coding": [{
                            "system": "http://loinc.org",
                            "code": "24336-0",
                            "display": "Gas panel - Arterial blood"
                        }
                    ],
                    "text": "Gas panel - Arterial blood"
                },
                "subject": {
                    "reference": "urn:uuid:6e6304b9-f6cf-4bac-97ef-6ab5b4d45610"
                },
                "effectiveDateTime": "2020-09-21",
                "hasMember": [{
                        "reference": "urn:uuid:342946b6-77bc-4e3c-901a-f92fe6a9dc45"
                    }, {
                        "reference": "urn:uuid:06659981-4625-4a8f-a190-0f2f7a3ac35c"
                    }, {
                        "reference": "urn:uuid:1ba15fa6-7c32-403b-92bf-2aa505a70849"
                    }, {
                        "reference": "urn:uuid:a83114c8-cb20-4645-95be-94a3fd308df8"
                    }, {
                        "reference": "urn:uuid:6c6817e2-69d3-48e7-834b-5adbf3b5adae"
                    }
                ]
            },
            "request": {
                "method": "PUT",
                "url": "Observation?_profile=https://www.netzwerk-universitaetsmedizin.de/fhir/StructureDefinition/blood-gas-panel&date=2020-09-21"
            }
        }
    ]
}
