{
  "resourceType": "Bundle",
  "type": "transaction",
  "entry": [
    {
      "fullUrl": "urn:uuid:1a4cef52-3418-4be7-b1e2-30dd9639f7ba",
      "resource": {
        "resourceType": "Patient",
        "meta": {
          "profile": [
            "https://www.medizininformatik-initiative.de/fhir/core/modul-person/StructureDefinition/PatientPseudonymisiert"
          ]
        },
        "identifier": [
          {
            "type": {
              "coding": [
                {
                  "code": "PSEUDED",
                  "system": "http://terminology.hl7.org/CodeSystem/v3-ObservationValue"
                }
              ]
            },
            "system": "urn:ietf:rfc:4122",
            "value": "07f602e0-579e-4fe3-95af-381728b00015"
          }
        ],
        "gender": "other",
        "_gender": {
          "extension": [
            {
              "url": "http://fhir.de/StructureDefinition/gender-amtlich-de",
              "valueCoding": {
                "code": "D",
                "system": "http://fhir.de/CodeSystem/gender-amtlich-de",
                "display": "divers"
              }
            }
          ]
        },
        "birthDate": "2022-12-01",
        "managingOrganization": {
          "identifier": {
            "system": "https://www.medizininformatik-initiative.de/fhir/core/CodeSystem/core-location-identifier",
            "value": "MHH"
          }
        }
      },
      "request": {
        "method": "POST",
        "url": "Patient"
      }
    },
    {
      "fullUrl": "urn:uuid:d7f5f52c-ce49-4e2e-8b2a-b5b4a602a6e2",
      "resource": {
        "resourceType": "Encounter",
        "meta": {
          "profile": [
            "https://www.medizininformatik-initiative.de/fhir/core/modul-fall/StructureDefinition/KontaktGesundheitseinrichtung"
          ]
        },
        "serviceType": {
          "coding": [
            {
              "system": "https://www.medizininformatik-initiative.de/fhir/core/modul-fall/CodeSystem/Fachabteilungsschluessel",
              "code": "3700",
              "display": "Sonstige Fachabteilung",
              "userSelected": false
            }
          ]
        },
        "class": {
          "extension": [
            {
              "url": "http://hl7.org/fhir/StructureDefinition/data-absent-reason",
              "valueCode": "unsupported"
            }
          ]
        },
        "status": "finished",
        "subject": {
          "reference": "urn:uuid:1a4cef52-3418-4be7-b1e2-30dd9639f7ba"
        },
        "identifier": [
          {
            "type": {
              "coding": [
                {
                  "code": "VN",
                  "system": "http://terminology.hl7.org/CodeSystem/v2-0203"
                }
              ]
            },
            "system": "http://medizininformatik-initiative.de/fhir/NamingSystem/Aufnahmenummer/MusterKrankenhaus",
            "value": "F_0000001"
          }
        ],
        "diagnosis": [
          {
            "use": {
              "extension": [
                {
                  "url": "http://hl7.org/fhir/StructureDefinition/data-absent-reason",
                  "valueCode": "unsupported"
                }
              ]
            },
            "condition": {
              "extension": [
                {
                  "url": "http://hl7.org/fhir/StructureDefinition/data-absent-reason",
                  "valueCode": "unsupported"
                }
              ]
            },
            "extension": [
              {
                "url": "http://hl7.org/fhir/StructureDefinition/data-absent-reason",
                "valueCode": "unsupported"
              }
            ]
          }
        ],
        "period": {
          "start": "2020-01-08T07:00:00+01:00",
          "end": "2020-01-11T05:00:00+01:00"
        }
      },
      "request": {
        "method": "POST",
        "url": "Encounter"
      }
    },
    {
      "fullUrl": "urn:uuid:bb8e9846-9bc1-4a7a-8e1a-cf941c5fddb6",
      "resource": {
        "resourceType": "Observation",
        "meta": {
          "profile": [
            "https://www.medizininformatik-initiative.de/fhir/modul-mikrobio/StructureDefinition/mii-pr-mikrobio-kultur-nachweis"
          ]
        },
        "contained": [
          {
            "resourceType": "Observation",
            "id": "empf-1",
            "meta": {
              "profile": [
                "https://www.medizininformatik-initiative.de/fhir/modul-mikrobio/StructureDefinition/mii-pr-mikrobio-empfindlichkeit"
              ]
            },
            "identifier": [
              {
                "extension": [
                  {
                    "url": "http://hl7.org/fhir/StructureDefinition/data-absent-reason",
                    "valueCode": "unsupported"
                  }
                ]
              }
            ],
            "status": "final",
            "category": [
              {
                "coding": [
                  {
                    "system": "http://terminology.hl7.org/CodeSystem/observation-category",
                    "code": "laboratory",
                    "display": "Laboratory"
                  },
                  {
                    "system": "http://loinc.org",
                    "code": "26436-6",
                    "display": "Laboratory studies (set)"
                  },
                  {
                    "system": "http://loinc.org",
                    "code": "18725-2",
                    "display": "Microbiology studies"
                  }
                ]
              }
            ],
            "code": {
              "coding": [
                {
                  "system": "http://loinc.org",
                  "code": "18868-0",
                  "display": "Aztreonam [Susceptibility]"
                }
              ]
            },
            "subject": {
              "reference": "urn:uuid:1a4cef52-3418-4be7-b1e2-30dd9639f7ba"
            },
            "effectiveDateTime": "2018-11-20T12:05:00+01:00",
            "valueQuantity": {
              "system": "http://unitsofmeasure.org",
              "value": 32,
              "code": "mg/L",
              "unit": "mg/L"
            },
            "specimen": {
              "extension": [
                {
                  "url": "http://hl7.org/fhir/StructureDefinition/data-absent-reason",
                  "valueCode": "unsupported"
                }
              ]
            },
            "interpretation": [
              {
                "coding": [
                  {
                    "system": "http://snomed.info/sct",
                    "code": "1306577009",
                    "display": "European Committee on Antimicrobial Susceptibility Testing category 2019 Susceptible, standard dosing regimen",
                    "version": "20240301"
                  }
                ]
              }
            ]
          },
          {
            "resourceType": "Observation",
            "id": "mre-1",
            "meta": {
              "profile": [
                "https://www.medizininformatik-initiative.de/fhir/modul-mikrobio/StructureDefinition/mii-pr-mikrobio-mre-klasse"
              ]
            },
            "identifier": [
              {
                "extension": [
                  {
                    "url": "http://hl7.org/fhir/StructureDefinition/data-absent-reason",
                    "valueCode": "unsupported"
                  }
                ]
              }
            ],
            "status": "final",
            "category": [
              {
                "coding": [
                  {
                    "system": "http://terminology.hl7.org/CodeSystem/observation-category",
                    "code": "laboratory",
                    "display": "Laboratory"
                  },
                  {
                    "system": "http://loinc.org",
                    "code": "26436-6",
                    "display": "Laboratory studies (set)"
                  },
                  {
                    "system": "http://loinc.org",
                    "code": "18725-2",
                    "display": "Microbiology studies"
                  }
                ]
              }
            ],
            "code": {
              "coding": [
                {
                  "system": "http://snomed.info/sct",
                  "code": "1285113001",
                  "display": "Type of antimicrobial resistant organism (observable entity)"
                }
              ]
            },
            "subject": {
              "reference": "urn:uuid:1a4cef52-3418-4be7-b1e2-30dd9639f7ba"
            },
            "effectiveDateTime": "2018-11-20T12:05:00+01:00",
            "valueCodeableConcept": {
              "coding": [
                {
                  "system": "http://snomed.info/sct",
                  "code": "115329001",
                  "display": "Methicillin resistant Staphylococcus aureus"
                }
              ]
            },
            "specimen": {
              "extension": [
                {
                  "url": "http://hl7.org/fhir/StructureDefinition/data-absent-reason",
                  "valueCode": "unsupported"
                }
              ]
            }
          },
          {
            "resourceType": "Specimen",
            "id": "probe-1",
            "meta": {
              "profile": [
                "http://hl7.org/fhir/StructureDefinition/Specimen"
              ]
            },
            "collection": {
              "collectedDateTime": "2011-08-16T06:15:00Z"
            }
          }
        ],
        "identifier": [
          {
            "extension": [
              {
                "url": "http://hl7.org/fhir/StructureDefinition/data-absent-reason",
                "valueCode": "unsupported"
              }
            ]
          }
        ],
        "status": "final",
        "category": [
          {
            "coding": [
              {
                "system": "http://terminology.hl7.org/CodeSystem/observation-category",
                "code": "laboratory",
                "display": "Laboratory"
              },
              {
                "system": "http://loinc.org",
                "code": "26436-6",
                "display": "Laboratory studies (set)"
              },
              {
                "system": "http://loinc.org",
                "code": "18725-2",
                "display": "Microbiology studies"
              }
            ]
          }
        ],
        "code": {
          "coding": [
            {
              "system": "http://loinc.org",
              "code": "11475-1",
              "display": "Microorganism identified in Specimen by Culture"
            }
          ]
        },
        "subject": {
          "reference": "urn:uuid:1a4cef52-3418-4be7-b1e2-30dd9639f7ba"
        },
        "effectiveDateTime": "2018-11-20T12:05:00+01:00",
        "valueCodeableConcept": {
          "coding": [
            {
              "system": "http://snomed.info/sct",
              "code": "260373001",
              "display": "Detected (qualifier value)"
            }
          ]
        },
        "specimen": {
          "reference": "#probe-1"
        },
        "hasMember": [
          {
            "reference": "#empf-1"
          },
          {
            "reference": "#mre-1"
          }
        ],
        "encounter": {
          "reference": "urn:uuid:d7f5f52c-ce49-4e2e-8b2a-b5b4a602a6e2"
        },
        "component": [
          {
            "code": {
              "coding": [
                {
                  "system": "http://loinc.org",
                  "code": "89248-9"
                }
              ]
            },
            "valueCodeableConcept": {
              "coding": [
                {
                  "system": "http://snomed.info/sct",
                  "code": "840533007",
                  "display": "Severe acute respiratory syndrome coronavirus 2 (organism)"
                }
              ]
            }
          }
        ]
      },
      "request": {
        "method": "POST",
        "url": "Observation"
      }
    },
    {
      "fullUrl": "urn:uuid:17e03942-3286-4b7c-86c2-9ff7f218a74e",
      "resource": {
        "resourceType": "Observation",
        "meta": {
          "profile": [
            "https://www.medizininformatik-initiative.de/fhir/modul-mikrobio/StructureDefinition/mii-pr-mikrobio-kultur-nachweis"
          ]
        },
        "contained": [
          {
            "resourceType": "Observation",
            "id": "empf-1",
            "meta": {
              "profile": [
                "https://www.medizininformatik-initiative.de/fhir/modul-mikrobio/StructureDefinition/mii-pr-mikrobio-empfindlichkeit"
              ]
            },
            "identifier": [
              {
                "extension": [
                  {
                    "url": "http://hl7.org/fhir/StructureDefinition/data-absent-reason",
                    "valueCode": "unsupported"
                  }
                ]
              }
            ],
            "status": "final",
            "category": [
              {
                "coding": [
                  {
                    "system": "http://terminology.hl7.org/CodeSystem/observation-category",
                    "code": "laboratory",
                    "display": "Laboratory"
                  },
                  {
                    "system": "http://loinc.org",
                    "code": "26436-6",
                    "display": "Laboratory studies (set)"
                  },
                  {
                    "system": "http://loinc.org",
                    "code": "18725-2",
                    "display": "Microbiology studies"
                  }
                ]
              }
            ],
            "code": {
              "coding": [
                {
                  "system": "http://loinc.org",
                  "code": "18868-0",
                  "display": "Aztreonam [Susceptibility]"
                }
              ]
            },
            "subject": {
              "reference": "urn:uuid:1a4cef52-3418-4be7-b1e2-30dd9639f7ba"
            },
            "effectiveDateTime": "2018-11-20T12:05:00+01:00",
            "valueQuantity": {
              "system": "http://unitsofmeasure.org",
              "value": 32,
              "code": "mg/L",
              "unit": "mg/L"
            },
            "specimen": {
              "extension": [
                {
                  "url": "http://hl7.org/fhir/StructureDefinition/data-absent-reason",
                  "valueCode": "unsupported"
                }
              ]
            },
            "interpretation": [
              {
                "coding": [
                  {
                    "system": "http://snomed.info/sct",
                    "code": "1306577009",
                    "display": "European Committee on Antimicrobial Susceptibility Testing category 2019 Susceptible, standard dosing regimen",
                    "version": "20240301"
                  }
                ]
              }
            ]
          },
          {
            "resourceType": "Observation",
            "id": "mre-1",
            "meta": {
              "profile": [
                "https://www.medizininformatik-initiative.de/fhir/modul-mikrobio/StructureDefinition/mii-pr-mikrobio-mre-klasse"
              ]
            },
            "identifier": [
              {
                "extension": [
                  {
                    "url": "http://hl7.org/fhir/StructureDefinition/data-absent-reason",
                    "valueCode": "unsupported"
                  }
                ]
              }
            ],
            "status": "final",
            "category": [
              {
                "coding": [
                  {
                    "system": "http://terminology.hl7.org/CodeSystem/observation-category",
                    "code": "laboratory",
                    "display": "Laboratory"
                  },
                  {
                    "system": "http://loinc.org",
                    "code": "26436-6",
                    "display": "Laboratory studies (set)"
                  },
                  {
                    "system": "http://loinc.org",
                    "code": "18725-2",
                    "display": "Microbiology studies"
                  }
                ]
              }
            ],
            "code": {
              "coding": [
                {
                  "system": "http://snomed.info/sct",
                  "code": "1285113001",
                  "display": "Type of antimicrobial resistant organism (observable entity)"
                }
              ]
            },
            "subject": {
              "reference": "urn:uuid:1a4cef52-3418-4be7-b1e2-30dd9639f7ba"
            },
            "effectiveDateTime": "2018-11-20T12:05:00+01:00",
            "valueCodeableConcept": {
              "coding": [
                {
                  "system": "http://snomed.info/sct",
                  "code": "113727004",
                  "display": "Vancomycin resistant Enterococcus"
                }
              ]
            },
            "specimen": {
              "extension": [
                {
                  "url": "http://hl7.org/fhir/StructureDefinition/data-absent-reason",
                  "valueCode": "unsupported"
                }
              ]
            }
          },
          {
            "resourceType": "Specimen",
            "id": "probe-1",
            "meta": {
              "profile": [
                "http://hl7.org/fhir/StructureDefinition/Specimen"
              ]
            },
            "collection": {
              "collectedDateTime": "2011-08-16T06:15:00Z"
            }
          }
        ],
        "identifier": [
          {
            "extension": [
              {
                "url": "http://hl7.org/fhir/StructureDefinition/data-absent-reason",
                "valueCode": "unsupported"
              }
            ]
          }
        ],
        "status": "final",
        "category": [
          {
            "coding": [
              {
                "system": "http://terminology.hl7.org/CodeSystem/observation-category",
                "code": "laboratory",
                "display": "Laboratory"
              },
              {
                "system": "http://loinc.org",
                "code": "26436-6",
                "display": "Laboratory studies (set)"
              },
              {
                "system": "http://loinc.org",
                "code": "18725-2",
                "display": "Microbiology studies"
              }
            ]
          }
        ],
        "code": {
          "coding": [
            {
              "system": "http://loinc.org",
              "code": "11475-1",
              "display": "Microorganism identified in Specimen by Culture"
            }
          ]
        },
        "subject": {
          "reference": "urn:uuid:1a4cef52-3418-4be7-b1e2-30dd9639f7ba"
        },
        "effectiveDateTime": "2018-11-20T12:05:00+01:00",
        "valueCodeableConcept": {
          "coding": [
            {
              "system": "http://snomed.info/sct",
              "code": "260373001",
              "display": "Detected (qualifier value)"
            }
          ]
        },
        "specimen": {
          "reference": "#probe-1"
        },
        "hasMember": [
          {
            "reference": "#empf-1"
          },
          {
            "reference": "#mre-1"
          }
        ],
        "encounter": {
          "reference": "urn:uuid:d7f5f52c-ce49-4e2e-8b2a-b5b4a602a6e2"
        },
        "component": [
          {
            "code": {
              "coding": [
                {
                  "system": "http://loinc.org",
                  "code": "89248-9"
                }
              ]
            },
            "valueCodeableConcept": {
              "coding": [
                {
                  "system": "http://snomed.info/sct",
                  "code": "840533007",
                  "display": "Severe acute respiratory syndrome coronavirus 2 (organism)"
                }
              ]
            }
          }
        ]
      },
      "request": {
        "method": "POST",
        "url": "Observation"
      }
    },
    {
      "fullUrl": "urn:uuid:863d6462-1293-4999-b173-b37d0b817444",
      "resource": {
        "resourceType": "Observation",
        "meta": {
          "profile": [
            "https://www.medizininformatik-initiative.de/fhir/modul-mikrobio/StructureDefinition/mii-pr-mikrobio-kultur-nachweis"
          ]
        },
        "contained": [
          {
            "resourceType": "Observation",
            "id": "empf-1",
            "meta": {
              "profile": [
                "https://www.medizininformatik-initiative.de/fhir/modul-mikrobio/StructureDefinition/mii-pr-mikrobio-empfindlichkeit"
              ]
            },
            "identifier": [
              {
                "type": {
                  "coding": [
                    {
                      "system": "http://terminology.hl7.org/CodeSystem/v2-0203",
                      "code": "OBI"
                    }
                  ]
                },
                "system": "https://example.org/fhir/sid/test-lab-results",
                "value": "59826-8_1234567890",
                "assigner": {
                  "identifier": {
                    "system": "https://www.medizininformatik-initiative.de/fhir/core/CodeSystem/core-location-identifier",
                    "value": "DIZ-ID"
                  }
                }
              }
            ],
            "status": "final",
            "category": [
              {
                "coding": [
                  {
                    "system": "http://terminology.hl7.org/CodeSystem/observation-category",
                    "code": "laboratory",
                    "display": "Laboratory"
                  },
                  {
                    "system": "http://loinc.org",
                    "code": "26436-6",
                    "display": "Laboratory studies (set)"
                  },
                  {
                    "system": "http://loinc.org",
                    "code": "18725-2",
                    "display": "Microbiology studies"
                  }
                ]
              }
            ],
            "code": {
              "coding": [
                {
                  "system": "http://loinc.org",
                  "code": "18868-0",
                  "display": "Aztreonam [Susceptibility]"
                }
              ]
            },
            "subject": {
              "reference": "urn:uuid:1a4cef52-3418-4be7-b1e2-30dd9639f7ba"
            },
            "effectiveDateTime": "2018-11-20T12:05:00+01:00",
            "valueQuantity": {
              "system": "http://unitsofmeasure.org",
              "value": 32,
              "code": "mg/L",
              "unit": "mg/L"
            },
            "specimen": {
              "extension": [
                {
                  "url": "http://hl7.org/fhir/StructureDefinition/data-absent-reason",
                  "valueCode": "unsupported"
                }
              ]
            },
            "interpretation": [
              {
                "coding": [
                  {
                    "system": "http://snomed.info/sct",
                    "code": "1306577009",
                    "display": "European Committee on Antimicrobial Susceptibility Testing category 2019 Susceptible, standard dosing regimen",
                    "version": "20240301"
                  }
                ]
              }
            ]
          },
          {
            "resourceType": "Observation",
            "id": "mrgn-1",
            "meta": {
              "profile": [
                "https://www.medizininformatik-initiative.de/fhir/modul-mikrobio/StructureDefinition/mii-pr-mikrobio-mrgn-klasse"
              ]
            },
            "identifier": [
              {
                "type": {
                  "coding": [
                    {
                      "system": "http://terminology.hl7.org/CodeSystem/v2-0203",
                      "code": "OBI"
                    }
                  ]
                },
                "system": "https://example.org/fhir/sid/test-lab-results",
                "value": "59826-8_1234567890",
                "assigner": {
                  "identifier": {
                    "system": "https://www.medizininformatik-initiative.de/fhir/core/CodeSystem/core-location-identifier",
                    "value": "DIZ-ID"
                  }
                }
              }
            ],
            "status": "final",
            "category": [
              {
                "coding": [
                  {
                    "system": "http://terminology.hl7.org/CodeSystem/observation-category",
                    "code": "laboratory",
                    "display": "Laboratory"
                  },
                  {
                    "system": "http://loinc.org",
                    "code": "26436-6",
                    "display": "Laboratory studies (set)"
                  },
                  {
                    "system": "http://loinc.org",
                    "code": "18725-2",
                    "display": "Microbiology studies"
                  }
                ]
              }
            ],
            "code": {
              "coding": [
                {
                  "system": "http://loinc.org",
                  "code": "99780-9",
                  "display": "Multidrug resistant gram-negative organism classification [Type]"
                }
              ]
            },
            "subject": {
              "reference": "urn:uuid:1a4cef52-3418-4be7-b1e2-30dd9639f7ba"
            },
            "effectiveDateTime": "2018-11-20T12:05:00+01:00",
            "valueCodeableConcept": {
              "coding": [
                {
                  "system": "http://loinc.org",
                  "code": "LA33214-0",
                  "display": "2MRGN"
                }
              ]
            },
            "specimen": {
              "extension": [
                {
                  "url": "http://hl7.org/fhir/StructureDefinition/data-absent-reason",
                  "valueCode": "unsupported"
                }
              ]
            }
          },
          {
            "resourceType": "Specimen",
            "id": "probe-1",
            "meta": {
              "profile": [
                "http://hl7.org/fhir/StructureDefinition/Specimen"
              ]
            },
            "collection": {
              "collectedDateTime": "2011-08-16T06:15:00Z"
            }
          }
        ],
        "identifier": [
          {
            "type": {
              "coding": [
                {
                  "system": "http://terminology.hl7.org/CodeSystem/v2-0203",
                  "code": "OBI"
                }
              ]
            },
            "system": "https://example.org/fhir/sid/test-lab-results",
            "value": "59826-8_1234567890",
            "assigner": {
              "identifier": {
                "system": "https://www.medizininformatik-initiative.de/fhir/core/CodeSystem/core-location-identifier",
                "value": "DIZ-ID"
              }
            }
          }
        ],
        "status": "final",
        "performer": [
          {
            "identifier": {
              "system": "https://www.medizininformatik-initiative.de/fhir/core/CodeSystem/core-location-identifiers",
              "value": "Charité"
            }
          }
        ],
        "category": [
          {
            "coding": [
              {
                "system": "http://terminology.hl7.org/CodeSystem/observation-category",
                "code": "laboratory",
                "display": "Laboratory"
              },
              {
                "system": "http://loinc.org",
                "code": "26436-6",
                "display": "Laboratory studies (set)"
              },
              {
                "system": "http://loinc.org",
                "code": "18725-2",
                "display": "Microbiology studies"
              }
            ]
          }
        ],
        "code": {
          "coding": [
            {
              "system": "http://loinc.org",
              "code": "11475-1",
              "display": "Microorganism identified in Specimen by Culture"
            }
          ]
        },
        "subject": {
          "reference": "urn:uuid:1a4cef52-3418-4be7-b1e2-30dd9639f7ba"
        },
        "effectiveDateTime": "2018-11-20T12:05:00+01:00",
        "valueCodeableConcept": {
          "coding": [
            {
              "system": "http://snomed.info/sct",
              "code": "260373001",
              "display": "Detected (qualifier value)"
            }
          ]
        },
        "specimen": {
          "reference": "#probe-1"
        },
        "hasMember": [
          {
            "reference": "#empf-1"
          },
          {
            "reference": "#mrgn-1"
          }
        ],
        "encounter": {
          "reference": "urn:uuid:d7f5f52c-ce49-4e2e-8b2a-b5b4a602a6e2"
        },
        "component": [
          {
            "code": {
              "coding": [
                {
                  "system": "http://loinc.org",
                  "code": "89248-9"
                }
              ]
            },
            "valueCodeableConcept": {
              "coding": [
                {
                  "system": "http://snomed.info/sct",
                  "code": "840533007",
                  "display": "Severe acute respiratory syndrome coronavirus 2 (organism)"
                }
              ]
            }
          }
        ]
      },
      "request": {
        "method": "POST",
        "url": "Observation"
      }
    },
    {
      "fullUrl": "urn:uuid:37a62b3c-2521-4c8c-b713-b3ae41f9224c",
      "resource": {
        "resourceType": "Observation",
        "meta": {
          "profile": [
            "https://www.medizininformatik-initiative.de/fhir/modul-mikrobio/StructureDefinition/mii-pr-mikrobio-kultur-nachweis"
          ]
        },
        "contained": [
          {
            "resourceType": "Observation",
            "id": "empf-1",
            "meta": {
              "profile": [
                "https://www.medizininformatik-initiative.de/fhir/modul-mikrobio/StructureDefinition/mii-pr-mikrobio-empfindlichkeit"
              ]
            },
            "identifier": [
              {
                "extension": [
                  {
                    "url": "http://hl7.org/fhir/StructureDefinition/data-absent-reason",
                    "valueCode": "unsupported"
                  }
                ]
              }
            ],
            "status": "final",
            "category": [
              {
                "coding": [
                  {
                    "system": "http://terminology.hl7.org/CodeSystem/observation-category",
                    "code": "laboratory",
                    "display": "Laboratory"
                  },
                  {
                    "system": "http://loinc.org",
                    "code": "26436-6",
                    "display": "Laboratory studies (set)"
                  },
                  {
                    "system": "http://loinc.org",
                    "code": "18725-2",
                    "display": "Microbiology studies"
                  }
                ]
              }
            ],
            "code": {
              "coding": [
                {
                  "system": "http://loinc.org",
                  "code": "18868-0",
                  "display": "Aztreonam [Susceptibility]"
                }
              ]
            },
            "subject": {
              "reference": "urn:uuid:1a4cef52-3418-4be7-b1e2-30dd9639f7ba"
            },
            "effectiveDateTime": "2018-11-20T12:05:00+01:00",
            "specimen": {
              "extension": [
                {
                  "url": "http://hl7.org/fhir/StructureDefinition/data-absent-reason",
                  "valueCode": "unsupported"
                }
              ]
            },
            "valueQuantity": {
              "system": "http://unitsofmeasure.org",
              "value": 32,
              "code": "mg/L",
              "unit": "mg/L"
            },
            "interpretation": [
              {
                "coding": [
                  {
                    "system": "http://snomed.info/sct",
                    "code": "1306577009",
                    "display": "European Committee on Antimicrobial Susceptibility Testing category 2019 Susceptible, standard dosing regimen",
                    "version": "20240301"
                  }
                ]
              }
            ]
          },
          {
            "resourceType": "Observation",
            "id": "mrgn-1",
            "meta": {
              "profile": [
                "https://www.medizininformatik-initiative.de/fhir/modul-mikrobio/StructureDefinition/mii-pr-mikrobio-mrgn-klasse"
              ]
            },
            "identifier": [
              {
                "extension": [
                  {
                    "url": "http://hl7.org/fhir/StructureDefinition/data-absent-reason",
                    "valueCode": "unsupported"
                  }
                ]
              }
            ],
            "status": "final",
            "category": [
              {
                "coding": [
                  {
                    "system": "http://terminology.hl7.org/CodeSystem/observation-category",
                    "code": "laboratory",
                    "display": "Laboratory"
                  },
                  {
                    "system": "http://loinc.org",
                    "code": "26436-6",
                    "display": "Laboratory studies (set)"
                  },
                  {
                    "system": "http://loinc.org",
                    "code": "18725-2",
                    "display": "Microbiology studies"
                  }
                ]
              }
            ],
            "code": {
              "coding": [
                {
                  "system": "http://loinc.org",
                  "code": "99780-9",
                  "display": "Multidrug resistant gram-negative organism classification [Type]"
                }
              ]
            },
            "subject": {
              "reference": "urn:uuid:1a4cef52-3418-4be7-b1e2-30dd9639f7ba"
            },
            "effectiveDateTime": "2018-11-20T12:05:00+01:00",
            "valueCodeableConcept": {
              "coding": [
                {
                  "system": "http://loinc.org",
                  "code": "LA33215-7",
                  "display": "3MRGN"
                }
              ]
            },
            "specimen": {
              "extension": [
                {
                  "url": "http://hl7.org/fhir/StructureDefinition/data-absent-reason",
                  "valueCode": "unsupported"
                }
              ]
            }
          },
          {
            "resourceType": "Specimen",
            "id": "probe-1",
            "meta": {
              "profile": [
                "http://hl7.org/fhir/StructureDefinition/Specimen"
              ]
            },
            "collection": {
              "collectedDateTime": "2011-08-16T06:15:00Z"
            }
          }
        ],
        "identifier": [
          {
            "extension": [
              {
                "url": "http://hl7.org/fhir/StructureDefinition/data-absent-reason",
                "valueCode": "unsupported"
              }
            ]
          }
        ],
        "status": "final",
        "category": [
          {
            "coding": [
              {
                "system": "http://terminology.hl7.org/CodeSystem/observation-category",
                "code": "laboratory",
                "display": "Laboratory"
              },
              {
                "system": "http://loinc.org",
                "code": "26436-6",
                "display": "Laboratory studies (set)"
              },
              {
                "system": "http://loinc.org",
                "code": "18725-2",
                "display": "Microbiology studies"
              }
            ]
          }
        ],
        "code": {
          "coding": [
            {
              "system": "http://loinc.org",
              "code": "11475-1",
              "display": "Microorganism identified in Specimen by Culture"
            }
          ]
        },
        "subject": {
          "reference": "urn:uuid:1a4cef52-3418-4be7-b1e2-30dd9639f7ba"
        },
        "effectiveDateTime": "2018-11-20T12:05:00+01:00",
        "valueCodeableConcept": {
          "coding": [
            {
              "system": "http://snomed.info/sct",
              "code": "260373001",
              "display": "Detected (qualifier value)"
            }
          ]
        },
        "specimen": {
          "reference": "#probe-1"
        },
        "hasMember": [
          {
            "reference": "#empf-1"
          },
          {
            "reference": "#mrgn-1"
          }
        ],
        "encounter": {
          "reference": "urn:uuid:d7f5f52c-ce49-4e2e-8b2a-b5b4a602a6e2"
        },
        "component": [
          {
            "code": {
              "coding": [
                {
                  "system": "http://loinc.org",
                  "code": "89248-9"
                }
              ]
            },
            "valueCodeableConcept": {
              "coding": [
                {
                  "system": "http://snomed.info/sct",
                  "code": "840533007",
                  "display": "Severe acute respiratory syndrome coronavirus 2 (organism)"
                }
              ]
            }
          }
        ]
      },
      "request": {
        "method": "POST",
        "url": "Observation"
      }
    },
    {
      "fullUrl": "urn:uuid:e616f94e-534d-40a4-9d15-59a5dc271e48",
      "resource": {
        "resourceType": "Observation",
        "meta": {
          "profile": [
            "https://www.medizininformatik-initiative.de/fhir/modul-mikrobio/StructureDefinition/mii-pr-mikrobio-kultur-nachweis"
          ]
        },
        "contained": [
          {
            "resourceType": "Observation",
            "id": "empf-1",
            "meta": {
              "profile": [
                "https://www.medizininformatik-initiative.de/fhir/modul-mikrobio/StructureDefinition/mii-pr-mikrobio-empfindlichkeit"
              ]
            },
            "identifier": [
              {
                "extension": [
                  {
                    "url": "http://hl7.org/fhir/StructureDefinition/data-absent-reason",
                    "valueCode": "unsupported"
                  }
                ]
              }
            ],
            "status": "final",
            "category": [
              {
                "coding": [
                  {
                    "system": "http://terminology.hl7.org/CodeSystem/observation-category",
                    "code": "laboratory",
                    "display": "Laboratory"
                  },
                  {
                    "system": "http://loinc.org",
                    "code": "26436-6",
                    "display": "Laboratory studies (set)"
                  },
                  {
                    "system": "http://loinc.org",
                    "code": "18725-2",
                    "display": "Microbiology studies"
                  }
                ]
              }
            ],
            "code": {
              "coding": [
                {
                  "system": "http://loinc.org",
                  "code": "18868-0",
                  "display": "Aztreonam [Susceptibility]"
                }
              ]
            },
            "subject": {
              "reference": "urn:uuid:1a4cef52-3418-4be7-b1e2-30dd9639f7ba"
            },
            "effectiveDateTime": "2018-11-20T12:05:00+01:00",
            "valueQuantity": {
              "system": "http://unitsofmeasure.org",
              "value": 32,
              "code": "mg/L",
              "unit": "mg/L"
            },
            "specimen": {
              "extension": [
                {
                  "url": "http://hl7.org/fhir/StructureDefinition/data-absent-reason",
                  "valueCode": "unsupported"
                }
              ]
            },
            "interpretation": [
              {
                "coding": [
                  {
                    "system": "http://snomed.info/sct",
                    "code": "1306577009",
                    "display": "European Committee on Antimicrobial Susceptibility Testing category 2019 Susceptible, standard dosing regimen",
                    "version": "20240301"
                  }
                ]
              }
            ]
          },
          {
            "resourceType": "Observation",
            "id": "mrgn-1",
            "meta": {
              "profile": [
                "https://www.medizininformatik-initiative.de/fhir/modul-mikrobio/StructureDefinition/mii-pr-mikrobio-mrgn-klasse"
              ]
            },
            "identifier": [
              {
                "extension": [
                  {
                    "url": "http://hl7.org/fhir/StructureDefinition/data-absent-reason",
                    "valueCode": "unsupported"
                  }
                ]
              }
            ],
            "status": "final",
            "category": [
              {
                "coding": [
                  {
                    "system": "http://terminology.hl7.org/CodeSystem/observation-category",
                    "code": "laboratory",
                    "display": "Laboratory"
                  },
                  {
                    "system": "http://loinc.org",
                    "code": "26436-6",
                    "display": "Laboratory studies (set)"
                  },
                  {
                    "system": "http://loinc.org",
                    "code": "18725-2",
                    "display": "Microbiology studies"
                  }
                ]
              }
            ],
            "code": {
              "coding": [
                {
                  "system": "http://loinc.org",
                  "code": "99780-9",
                  "display": "Multidrug resistant gram-negative organism classification [Type]"
                }
              ]
            },
            "subject": {
              "reference": "urn:uuid:1a4cef52-3418-4be7-b1e2-30dd9639f7ba"
            },
            "effectiveDateTime": "2018-11-20T12:05:00+01:00",
            "valueCodeableConcept": {
              "coding": [
                {
                  "system": "http://loinc.org",
                  "code": "LA33215-7",
                  "display": "3MRGN"
                }
              ]
            },
            "specimen": {
              "extension": [
                {
                  "url": "http://hl7.org/fhir/StructureDefinition/data-absent-reason",
                  "valueCode": "unsupported"
                }
              ]
            }
          },
          {
            "resourceType": "Specimen",
            "id": "probe-1",
            "meta": {
              "profile": [
                "http://hl7.org/fhir/StructureDefinition/Specimen"
              ]
            },
            "collection": {
              "collectedDateTime": "2011-08-16T06:15:00Z"
            }
          }
        ],
        "identifier": [
          {
            "extension": [
              {
                "url": "http://hl7.org/fhir/StructureDefinition/data-absent-reason",
                "valueCode": "unsupported"
              }
            ]
          }
        ],
        "status": "final",
        "category": [
          {
            "coding": [
              {
                "system": "http://terminology.hl7.org/CodeSystem/observation-category",
                "code": "laboratory",
                "display": "Laboratory"
              },
              {
                "system": "http://loinc.org",
                "code": "26436-6",
                "display": "Laboratory studies (set)"
              },
              {
                "system": "http://loinc.org",
                "code": "18725-2",
                "display": "Microbiology studies"
              }
            ]
          }
        ],
        "code": {
          "coding": [
            {
              "system": "http://loinc.org",
              "code": "11475-1",
              "display": "Microorganism identified in Specimen by Culture"
            }
          ]
        },
        "subject": {
          "reference": "urn:uuid:1a4cef52-3418-4be7-b1e2-30dd9639f7ba"
        },
        "effectiveDateTime": "2018-11-20T12:05:00+01:00",
        "valueCodeableConcept": {
          "coding": [
            {
              "system": "http://snomed.info/sct",
              "code": "260373001",
              "display": "Detected (qualifier value)"
            }
          ]
        },
        "specimen": {
          "reference": "#probe-1"
        },
        "hasMember": [
          {
            "reference": "#empf-1"
          },
          {
            "reference": "#mrgn-1"
          }
        ],
        "encounter": {
          "reference": "urn:uuid:d7f5f52c-ce49-4e2e-8b2a-b5b4a602a6e2"
        },
        "component": [
          {
            "code": {
              "coding": [
                {
                  "system": "http://loinc.org",
                  "code": "89248-9"
                }
              ]
            },
            "valueCodeableConcept": {
              "coding": [
                {
                  "system": "http://snomed.info/sct",
                  "code": "840533007",
                  "display": "Severe acute respiratory syndrome coronavirus 2 (organism)"
                }
              ]
            }
          }
        ]
      },
      "request": {
        "method": "POST",
        "url": "Observation"
      }
    },
    {
      "fullUrl": "urn:uuid:a96ea433-8a27-4f67-9606-c19b0a4c12fa",
      "resource": {
        "resourceType": "Observation",
        "meta": {
          "profile": [
            "https://www.medizininformatik-initiative.de/fhir/modul-mikrobio/StructureDefinition/mii-pr-mikrobio-kultur-nachweis"
          ]
        },
        "contained": [
          {
            "resourceType": "Observation",
            "id": "empf-1",
            "meta": {
              "profile": [
                "https://www.medizininformatik-initiative.de/fhir/modul-mikrobio/StructureDefinition/mii-pr-mikrobio-empfindlichkeit"
              ]
            },
            "identifier": [
              {
                "extension": [
                  {
                    "url": "http://hl7.org/fhir/StructureDefinition/data-absent-reason",
                    "valueCode": "unsupported"
                  }
                ]
              }
            ],
            "status": "final",
            "category": [
              {
                "coding": [
                  {
                    "system": "http://terminology.hl7.org/CodeSystem/observation-category",
                    "code": "laboratory",
                    "display": "Laboratory"
                  },
                  {
                    "system": "http://loinc.org",
                    "code": "26436-6",
                    "display": "Laboratory studies (set)"
                  },
                  {
                    "system": "http://loinc.org",
                    "code": "18725-2",
                    "display": "Microbiology studies"
                  }
                ]
              }
            ],
            "code": {
              "coding": [
                {
                  "system": "http://loinc.org",
                  "code": "18868-0",
                  "display": "Aztreonam [Susceptibility]"
                }
              ]
            },
            "subject": {
              "reference": "urn:uuid:1a4cef52-3418-4be7-b1e2-30dd9639f7ba"
            },
            "effectiveDateTime": "2018-11-20T12:05:00+01:00",
            "valueQuantity": {
              "system": "http://unitsofmeasure.org",
              "value": 32,
              "code": "mg/L",
              "unit": "mg/L"
            },
            "specimen": {
              "extension": [
                {
                  "url": "http://hl7.org/fhir/StructureDefinition/data-absent-reason",
                  "valueCode": "unsupported"
                }
              ]
            },
            "interpretation": [
              {
                "coding": [
                  {
                    "system": "http://snomed.info/sct",
                    "code": "1306577009",
                    "display": "European Committee on Antimicrobial Susceptibility Testing category 2019 Susceptible, standard dosing regimen",
                    "version": "20240301"
                  }
                ]
              }
            ]
          },
          {
            "resourceType": "Observation",
            "id": "mrgn-1",
            "meta": {
              "profile": [
                "https://www.medizininformatik-initiative.de/fhir/modul-mikrobio/StructureDefinition/mii-pr-mikrobio-mrgn-klasse"
              ]
            },
            "identifier": [
              {
                "extension": [
                  {
                    "url": "http://hl7.org/fhir/StructureDefinition/data-absent-reason",
                    "valueCode": "unsupported"
                  }
                ]
              }
            ],
            "status": "final",
            "category": [
              {
                "coding": [
                  {
                    "system": "http://terminology.hl7.org/CodeSystem/observation-category",
                    "code": "laboratory",
                    "display": "Laboratory"
                  },
                  {
                    "system": "http://loinc.org",
                    "code": "26436-6",
                    "display": "Laboratory studies (set)"
                  },
                  {
                    "system": "http://loinc.org",
                    "code": "18725-2",
                    "display": "Microbiology studies"
                  }
                ]
              }
            ],
            "code": {
              "coding": [
                {
                  "system": "http://loinc.org",
                  "code": "99780-9",
                  "display": "Multidrug resistant gram-negative organism classification [Type]"
                }
              ]
            },
            "subject": {
              "reference": "urn:uuid:1a4cef52-3418-4be7-b1e2-30dd9639f7ba"
            },
            "effectiveDateTime": "2018-11-20T12:05:00+01:00",
            "valueCodeableConcept": {
              "coding": [
                {
                  "system": "http://loinc.org",
                  "code": "LA33215-7",
                  "display": "3MRGN"
                }
              ]
            },
            "specimen": {
              "extension": [
                {
                  "url": "http://hl7.org/fhir/StructureDefinition/data-absent-reason",
                  "valueCode": "unsupported"
                }
              ]
            }
          },
          {
            "resourceType": "Specimen",
            "id": "probe-1",
            "meta": {
              "profile": [
                "http://hl7.org/fhir/StructureDefinition/Specimen"
              ]
            },
            "collection": {
              "collectedDateTime": "2011-08-16T06:15:00Z"
            }
          }
        ],
        "identifier": [
          {
            "extension": [
              {
                "url": "http://hl7.org/fhir/StructureDefinition/data-absent-reason",
                "valueCode": "unsupported"
              }
            ]
          }
        ],
        "status": "final",
        "category": [
          {
            "coding": [
              {
                "system": "http://terminology.hl7.org/CodeSystem/observation-category",
                "code": "laboratory",
                "display": "Laboratory"
              },
              {
                "system": "http://loinc.org",
                "code": "26436-6",
                "display": "Laboratory studies (set)"
              },
              {
                "system": "http://loinc.org",
                "code": "18725-2",
                "display": "Microbiology studies"
              }
            ]
          }
        ],
        "code": {
          "coding": [
            {
              "system": "http://loinc.org",
              "code": "11475-1",
              "display": "Microorganism identified in Specimen by Culture"
            }
          ]
        },
        "subject": {
          "reference": "urn:uuid:1a4cef52-3418-4be7-b1e2-30dd9639f7ba"
        },
        "effectiveDateTime": "2018-11-20T12:05:00+01:00",
        "valueCodeableConcept": {
          "coding": [
            {
              "system": "http://snomed.info/sct",
              "code": "260373001",
              "display": "Detected (qualifier value)"
            }
          ]
        },
        "specimen": {
          "reference": "#probe-1"
        },
        "hasMember": [
          {
            "reference": "#empf-1"
          },
          {
            "reference": "#mrgn-1"
          }
        ],
        "encounter": {
          "reference": "urn:uuid:d7f5f52c-ce49-4e2e-8b2a-b5b4a602a6e2"
        },
        "component": [
          {
            "code": {
              "coding": [
                {
                  "system": "http://loinc.org",
                  "code": "89248-9"
                }
              ]
            },
            "valueCodeableConcept": {
              "coding": [
                {
                  "system": "http://snomed.info/sct",
                  "code": "840533007",
                  "display": "Severe acute respiratory syndrome coronavirus 2 (organism)"
                }
              ]
            }
          }
        ]
      },
      "request": {
        "method": "POST",
        "url": "Observation"
      }
    },
    {
      "fullUrl": "urn:uuid:09059c94-cf9e-4d9e-aefd-fff90ebe8873",
      "resource": {
        "resourceType": "Observation",
        "meta": {
          "profile": [
            "https://www.medizininformatik-initiative.de/fhir/modul-mikrobio/StructureDefinition/mii-pr-mikrobio-molekulare-diagnostik"
          ]
        },
        "contained": [
          {
            "resourceType": "Specimen",
            "id": "probe-1",
            "meta": {
              "profile": [
                "http://hl7.org/fhir/StructureDefinition/Specimen"
              ]
            },
            "collection": {
              "collectedDateTime": "2011-08-16T06:15:00Z"
            }
          }
        ],
        "identifier": [
          {
            "type": {
              "coding": [
                {
                  "system": "http://terminology.hl7.org/CodeSystem/v2-0203",
                  "code": "OBI"
                }
              ]
            },
            "system": "https://example.org/fhir/sid/test-lab-results",
            "value": "59826-8_1234567890",
            "assigner": {
              "identifier": {
                "system": "https://www.medizininformatik-initiative.de/fhir/core/CodeSystem/core-location-identifier",
                "value": "DIZ-ID"
              }
            }
          }
        ],
        "status": "final",
        "category": [
          {
            "coding": [
              {
                "system": "http://terminology.hl7.org/CodeSystem/observation-category",
                "code": "laboratory",
                "display": "Laboratory"
              },
              {
                "system": "http://loinc.org",
                "code": "26436-6",
                "display": "Laboratory studies (set)"
              },
              {
                "system": "http://loinc.org",
                "code": "18725-2",
                "display": "Microbiology studies"
              }
            ]
          }
        ],
        "code": {
          "coding": [
            {
              "system": "http://loinc.org",
              "code": "92253-4",
              "display": "Microorganism identified in Isolate or Specimen by Molecular genetics method"
            }
          ]
        },
        "subject": {
          "reference": "urn:uuid:1a4cef52-3418-4be7-b1e2-30dd9639f7ba"
        },
        "effectiveDateTime": "2018-11-20T12:05:00+01:00",
        "valueCodeableConcept": {
          "coding": [
            {
              "system": "http://snomed.info/sct",
              "code": "10828004",
              "display": "Positive"
            }
          ]
        },
        "specimen": {
          "reference": "#probe-1"
        },
        "encounter": {
          "reference": "urn:uuid:d7f5f52c-ce49-4e2e-8b2a-b5b4a602a6e2"
        },
        "component": [
          {
            "code": {
              "coding": [
                {
                  "system": "http://snomed.info/sct",
                  "code": "398545005"
                }
              ]
            },
            "valueQuantity": {
              "value": 25.5,
              "unit": "ng/mL",
              "system": "http://unitsofmeasure.org",
              "code": "ng/mL"
            }
          },
          {
            "code": {
              "coding": [
                {
                  "system": "http://loinc.org",
                  "code": "89248-9"
                }
              ]
            },
            "valueCodeableConcept": {
              "coding": [
                {
                  "system": "http://snomed.info/sct",
                  "code": "840533007",
                  "display": "Severe acute respiratory syndrome coronavirus 2 (organism)"
                }
              ]
            }
          }
        ]
      },
      "request": {
        "method": "POST",
        "url": "Observation"
      }
    },
    {
      "fullUrl": "urn:uuid:7bc9bea7-852f-446e-83f9-9bab165b5c17",
      "resource": {
        "resourceType": "Observation",
        "meta": {
          "profile": [
            "https://www.medizininformatik-initiative.de/fhir/modul-mikrobio/StructureDefinition/mii-pr-mikrobio-molekulare-diagnostik"
          ]
        },
        "contained": [
          {
            "resourceType": "Specimen",
            "id": "probe-1",
            "meta": {
              "profile": [
                "http://hl7.org/fhir/StructureDefinition/Specimen"
              ]
            },
            "collection": {
              "collectedDateTime": "2011-08-16T06:15:00Z"
            }
          }
        ],
        "identifier": [
          {
            "type": {
              "coding": [
                {
                  "system": "http://terminology.hl7.org/CodeSystem/v2-0203",
                  "code": "OBI"
                }
              ]
            },
            "system": "https://example.org/fhir/sid/test-lab-results",
            "value": "59826-8_1234567890",
            "assigner": {
              "identifier": {
                "system": "https://www.medizininformatik-initiative.de/fhir/core/CodeSystem/core-location-identifier",
                "value": "DIZ-ID"
              }
            }
          }
        ],
        "status": "final",
        "category": [
          {
            "coding": [
              {
                "system": "http://terminology.hl7.org/CodeSystem/observation-category",
                "code": "laboratory",
                "display": "Laboratory"
              },
              {
                "system": "http://loinc.org",
                "code": "26436-6",
                "display": "Laboratory studies (set)"
              },
              {
                "system": "http://loinc.org",
                "code": "18725-2",
                "display": "Microbiology studies"
              }
            ]
          }
        ],
        "code": {
          "coding": [
            {
              "system": "http://loinc.org",
              "code": "92253-4",
              "display": "Microorganism identified in Isolate or Specimen by Molecular genetics method"
            }
          ]
        },
        "subject": {
          "reference": "urn:uuid:1a4cef52-3418-4be7-b1e2-30dd9639f7ba"
        },
        "effectiveDateTime": "2018-11-20T12:05:00+01:00",
        "valueCodeableConcept": {
          "coding": [
            {
              "system": "http://snomed.info/sct",
              "code": "10828004",
              "display": "Positive"
            }
          ]
        },
        "specimen": {
          "reference": "#probe-1"
        },
        "encounter": {
          "reference": "urn:uuid:d7f5f52c-ce49-4e2e-8b2a-b5b4a602a6e2"
        },
        "performer": [
          {
            "identifier": {
              "system": "https://www.medizininformatik-initiative.de/fhir/core/CodeSystem/core-location-identifiers",
              "value": "Charité"
            }
          }
        ],
        "component": [
          {
            "code": {
              "coding": [
                {
                  "system": "http://snomed.info/sct",
                  "code": "398545005"
                }
              ]
            },
            "valueQuantity": {
              "value": 25.5,
              "unit": "ng/mL",
              "system": "http://unitsofmeasure.org",
              "code": "ng/mL"
            }
          },
          {
            "code": {
              "coding": [
                {
                  "system": "http://loinc.org",
                  "code": "89248-9"
                }
              ]
            },
            "valueCodeableConcept": {
              "coding": [
                {
                  "system": "http://snomed.info/sct",
                  "code": "840533007",
                  "display": "Severe acute respiratory syndrome coronavirus 2 (organism)"
                }
              ]
            }
          }
        ]
      },
      "request": {
        "method": "POST",
        "url": "Observation"
      }
    }
  ]
}